timestamp_ms,ax,ay,az,gx,gy,gz,flow_vx,flow_vy,flow_px,flow_py,flow_raw_x,flow_raw_y,range_mm,quality,comp_vx,comp_vy,comp_px,comp_py
3117,-0.000,0.000,-1.001,-0.1,0.0,0.1,0.0000,0.0000,0.0014,0.0000,-1,0,110,132,0.0284,-0.0001,0.0014,-0.0000
3176,-0.003,-0.001,-1.005,0.0,0.1,0.0,0.0000,0.0000,-0.0014,0.0000,2,0,110,134,-0.0480,0.0001,-0.0014,-0.0000
3228,0.001,-0.002,-1.006,0.1,0.0,0.0,0.0000,0.0000,0.0000,0.0000,-1,0,110,123,0.0274,0.0001,-0.0000,0.0000
3280,0.000,0.000,-1.000,-0.0,-0.1,0.1,0.0000,0.0000,0.0014,0.0000,-1,0,110,121,0.0275,-0.0000,0.0014,0.0000
3332,0.002,-0.000,-1.008,-0.0,0.1,-0.2,0.0000,0.0000,0.0014,0.0000,0,0,110,131,-0.0003,-0.0001,0.0014,0.0000
3384,-0.001,-0.003,-1.002,0.0,-0.0,0.1,0.0000,0.0000,0.0000,0.0000,1,0,110,124,-0.0273,0.0000,-0.0000,0.0000
3436,-0.001,-0.001,-0.996,0.4,-0.3,-0.1,-1.2940,0.0000,-0.0013,0.0000,1,0,100,132,-0.0244,0.0006,-0.0013,0.0000
3488,0.003,-0.003,-0.998,-0.2,0.3,-0.0,0.0000,0.0000,0.0000,0.0000,-1,0,100,130,0.0243,-0.0004,-0.0000,0.0000
3540,0.001,-0.022,-1.009,4.0,-2.7,-0.4,0.0000,0.0000,0.0000,0.0000,0,0,100,130,0.0047,0.0069,0.0002,0.0004
3592,-0.002,-0.034,-1.013,-0.9,-0.5,0.0,0.0000,0.0000,0.0000,0.0000,0,0,110,131,0.0009,-0.0017,0.0003,0.0003
3643,0.017,0.039,-0.999,0.1,0.7,0.0,0.0000,0.0000,-0.0014,0.0000,1,0,110,122,-0.0292,0.0003,-0.0012,0.0003
3694,-0.005,-0.031,-0.997,1.6,0.5,0.4,0.0000,0.0000,0.0000,0.0000,-1,0,110,126,0.0269,0.0031,0.0001,0.0005
3745,-0.012,-0.001,-1.003,-4.5,1.1,-0.0,0.0000,0.0000,0.0014,0.0000,-1,0,110,126,0.0258,-0.0087,0.0015,0.0000
3797,-0.007,0.020,-1.007,2.0,-3.5,-0.3,0.0000,0.0000,0.0014,0.0000,0,0,110,126,0.0067,0.0039,0.0018,0.0002
3848,0.001,-0.019,-0.987,-1.2,-0.4,0.1,0.0000,0.0000,0.0014,0.0000,0,0,110,126,0.0007,-0.0024,0.0018,0.0001
3899,0.004,0.021,-0.992,-0.9,0.6,0.1,0.0000,0.0000,0.0028,0.0000,-1,0,110,126,0.0267,-0.0018,0.0032,0.0000
3950,-0.018,0.001,-0.999,1.1,-0.0,-0.0,0.0000,0.0000,0.0028,0.0000,0,0,100,127,0.0001,0.0019,0.0032,0.0001
4002,-0.003,0.009,-1.007,2.8,-1.0,0.0,0.0000,0.0000,0.0028,0.0000,0,0,100,129,0.0018,0.0050,0.0033,0.0004
4053,0.004,0.008,-1.008,5.7,-0.6,0.1,0.0000,0.0000,0.0028,0.0000,0,0,100,119,0.0010,0.0100,0.0033,0.0009
4104,-0.012,0.043,-1.015,-2.8,1.3,-1.2,0.0000,0.0000,0.0028,0.0000,0,0,110,127,-0.0025,-0.0054,0.0032,0.0006
4155,-0.010,0.033,-0.993,0.0,-0.7,6.2,0.0000,0.0000,0.0028,0.0000,0,0,110,126,0.0014,0.0001,0.0033,0.0006
4206,-0.005,0.041,-0.999,-1.8,0.7,0.4,0.0000,0.0000,0.0028,-0.0014,0,1,110,125,-0.0014,-0.0313,0.0032,-0.0010
4257,-0.005,0.027,-0.999,1.3,-0.5,-1.2,0.0000,0.0000,0.0043,0.0000,-1,-1,110,132,0.0288,0.0304,0.0047,0.0005
4308,0.017,0.034,-0.995,1.4,-0.8,-0.2,0.0000,0.0000,0.0056,0.0000,-1,0,100,128,0.0268,0.0025,0.0061,0.0007
4359,0.004,0.037,-1.001,0.6,0.8,-0.4,0.0000,2.5880,0.0069,0.0026,-1,-2,100,125,0.0239,0.0518,0.0073,0.0033
4410,-0.031,0.004,-1.010,1.7,0.6,8.1,0.0000,0.0000,0.0056,0.0026,1,0,110,130,-0.0290,0.0032,0.0058,0.0035
4461,-0.015,-0.007,-0.993,2.8,-1.1,4.5,0.0000,-1.4234,0.0056,0.0097,0,-5,110,129,0.0021,0.1449,0.0059,0.0109
4512,-0.001,0.019,-0.990,-1.2,0.2,-0.7,1.4234,4.2702,0.0070,0.0126,-1,-2,110,138,0.0276,0.0536,0.0073,0.0136
4563,-0.027,-0.047,-1.001,0.9,-0.3,-10.4,1.4234,0.0000,0.0084,0.0225,-1,-7,110,120,0.0284,0.1971,0.0088,0.0237
4615,-0.000,-0.018,-1.023,-1.4,-1.5,-9.3,-2.8468,2.8468,-0.0001,0.0339,6,-8,110,130,-0.1615,0.2163,0.0004,0.0349
4666,0.010,-0.041,-0.993,-0.5,0.4,-2.7,-1.4234,2.8468,-0.0087,0.0453,6,-8,110,142,-0.1683,0.2222,-0.0082,0.0462
4717,-0.005,-0.030,-0.993,-0.6,1.3,0.6,0.0000,0.0000,-0.0101,0.0424,1,2,110,130,-0.0303,-0.0570,-0.0098,0.0433
4768,0.006,-0.045,-1.013,2.8,-0.6,5.3,0.0000,0.0000,-0.0087,0.0538,-1,-8,110,131,0.0291,0.2288,-0.0083,0.0550
4819,0.013,-0.019,-0.993,-1.0,0.5,5.4,-4.2702,1.4234,-0.0144,0.0652,4,-8,110,125,-0.1126,0.2214,-0.0140,0.0663
4870,-0.013,-0.040,-0.998,-0.2,-0.4,0.8,0.0000,0.0000,-0.0186,0.0652,3,0,110,123,-0.0830,-0.0003,-0.0183,0.0663
4921,0.007,-0.033,-1.001,0.1,-0.8,1.2,1.4234,0.0000,-0.0144,0.0738,-3,-6,110,133,0.0852,0.1677,-0.0139,0.0748
4972,0.008,-0.018,-1.005,-1.6,-0.2,-0.8,5.6936,-2.8468,0.0070,0.0652,-15,6,110,136,0.4190,-0.1705,0.0074,0.0661
5023,-0.004,-0.031,-1.000,0.5,-0.0,-1.4,0.0000,1.4234,0.0127,0.0624,-4,2,110,127,0.1116,-0.0548,0.0131,0.0633
5074,0.006,-0.042,-1.003,0.6,0.4,-1.2,0.0000,0.0000,0.0170,0.0695,-3,-5,110,134,0.0829,0.1408,0.0174,0.0705
5125,-0.009,-0.043,-1.008,0.1,-0.9,-4.0,0.0000,1.4234,0.0184,0.0723,-1,-2,110,128,0.0297,0.0560,0.0189,0.0734
5176,-0.013,-0.063,-1.003,0.4,-0.9,-4.9,0.0000,-1.4234,0.0170,0.0681,1,3,110,126,-0.0261,-0.0831,0.0176,0.0691
5227,-0.010,-0.018,-0.988,-3.9,0.5,-1.5,0.0000,1.4234,0.0170,0.0780,0,-7,110,126,-0.0010,0.1877,0.0175,0.0787
5278,-0.003,0.003,-0.995,-4.9,0.9,-0.2,1.4234,0.0000,0.0184,0.0780,-1,0,110,113,0.0261,-0.0094,0.0188,0.0782
5329,0.002,0.014,-0.998,-0.6,-0.4,-0.4,0.0000,0.0000,0.0198,0.0795,-1,-1,110,132,0.0286,0.0267,0.0203,0.0796
5380,-0.006,0.001,-1.001,-0.9,0.1,0.0,-1.4234,0.0000,0.0184,0.0795,1,0,110,126,-0.0281,-0.0017,0.0189,0.0795
5431,0.001,0.008,-1.007,-0.1,0.2,-0.1,0.0000,0.0000,0.0170,0.0809,1,-1,110,134,-0.0282,0.0278,0.0174,0.0809
5482,0.001,-0.002,-1.004,-2.0,0.8,0.0,0.0000,0.0000,0.0184,0.0823,-1,-1,110,128,0.0264,0.0240,0.0188,0.0821
5533,0.000,0.008,-0.996,0.3,0.1,-0.1,0.0000,0.0000,0.0184,0.0823,0,0,110,119,-0.0002,0.0006,0.0188,0.0822
5585,0.001,0.005,-1.000,0.9,0.0,0.1,0.0000,0.0000,0.0184,0.0809,0,1,110,130,-0.0001,-0.0256,0.0188,0.0808
5637,-0.008,-0.005,-1.001,1.7,-0.8,-0.1,0.0000,0.0000,0.0184,0.0809,0,0,110,129,0.0016,0.0033,0.0188,0.0810
5689,-0.000,-0.004,-1.003,0.9,-0.2,0.1,-1.4234,0.0000,0.0170,0.0809,1,0,110,129,-0.0271,0.0017,0.0174,0.0811
5741,0.038,-0.020,-0.995,-5.0,5.3,-0.0,0.0000,0.0000,0.0170,0.0809,0,0,110,130,-0.0101,-0.0097,0.0169,0.0806
5793,0.018,0.063,-0.957,-0.7,7.2,1.6,0.0000,0.0000,0.0170,0.0809,0,0,110,126,-0.0139,-0.0014,0.0162,0.0805
5845,-0.031,-0.030,-0.998,1.7,1.0,0.3,0.0000,0.0000,0.0170,0.0809,0,0,110,121,-0.0020,0.0033,0.0161,0.0807
5897,0.027,0.014,-0.995,-4.1,2.5,0.2,0.0000,0.0000,0.0170,0.0809,0,0,110,131,-0.0048,-0.0078,0.0158,0.0803
5949,0.009,0.018,-0.994,1.5,0.3,-0.1,0.0000,0.0000,0.0184,0.0823,-1,-1,110,130,0.0268,0.0304,0.0172,0.0819
6001,-0.005,-0.015,-1.001,0.3,-0.6,-0.1,0.0000,0.0000,0.0198,0.0823,-1,0,110,132,0.0285,0.0005,0.0187,0.0819
6053,0.007,0.014,-1.003,-0.7,-0.2,-0.1,0.0000,0.0000,0.0170,0.0823,2,0,110,135,-0.0544,-0.0014,0.0159,0.0818
6105,-0.002,-0.003,-1.002,1.3,-0.5,0.0,0.0000,0.0000,0.0184,0.0823,-1,0,110,127,0.0284,0.0025,0.0174,0.0820
6157,-0.007,0.000,-1.007,-0.7,0.1,-0.1,0.0000,0.0000,0.0184,0.0823,0,0,110,135,-0.0003,-0.0013,0.0173,0.0819
6209,0.002,0.005,-1.002,0.2,-0.1,0.1,-1.4234,0.0000,0.0170,0.0823,1,0,110,123,-0.0272,0.0003,0.0159,0.0819
6261,-0.002,-0.009,-1.002,0.2,0.1,-0.0,0.0000,0.0000,0.0170,0.0823,0,0,110,133,-0.0003,0.0003,0.0159,0.0819
6313,-0.001,0.007,-0.997,-0.5,0.1,0.0,0.0000,0.0000,0.0184,0.0823,-1,0,110,131,0.0273,-0.0010,0.0173,0.0819
6365,-0.000,0.001,-0.999,0.4,-0.2,-0.0,0.0000,0.0000,0.0184,0.0823,0,0,110,122,0.0004,0.0008,0.0174,0.0819
6417,0.001,0.002,-1.004,-0.2,0.1,0.1,-1.4234,0.0000,0.0170,0.0823,1,0,110,130,-0.0275,-0.0004,0.0159,0.0819
6469,-0.003,0.004,-0.994,0.1,0.0,-0.0,0.0000,0.0000,0.0170,0.0823,0,0,110,131,-0.0001,0.0002,0.0159,0.0819
6521,0.000,-0.001,-1.002,0.0,-0.0,-0.0,0.0000,0.0000,0.0184,0.0823,-1,0,110,126,0.0274,0.0000,0.0173,0.0819
6573,-0.002,0.004,-1.006,0.0,0.0,-0.1,0.0000,0.0000,0.0184,0.0823,0,0,110,135,-0.0000,0.0000,0.0173,0.0819
6625,-0.002,0.001,-0.997,0.1,-0.0,-0.1,0.0000,0.0000,0.0198,0.0823,-1,0,110,132,0.0274,0.0003,0.0188,0.0819
6677,-0.006,0.003,-0.993,-0.1,0.0,0.1,0.0000,0.0000,0.0184,0.0823,1,0,110,124,-0.0274,-0.0002,0.0173,0.0819
6729,-0.002,0.004,-0.993,0.0,-0.1,-0.1,0.0000,0.0000,0.0184,0.0823,0,0,110,135,0.0001,0.0000,0.0174,0.0819
6781,-0.000,-0.000,-0.997,0.1,0.0,-0.0,1.4234,0.0000,0.0198,0.0837,-1,-1,110,131,0.0273,0.0276,0.0188,0.0833
6833,-0.002,0.002,-0.995,0.0,-0.1,-0.1,0.0000,0.0000,0.0198,0.0837,0,0,110,134,0.0002,0.0000,0.0188,0.0833
6885,0.001,0.000,-0.997,0.0,-0.1,-0.1,0.0000,0.0000,0.0198,0.0837,0,0,110,118,0.0002,0.0000,0.0188,0.0833
6937,-0.002,0.003,-0.994,-0.0,0.0,0.1,0.0000,0.0000,0.0198,0.0837,0,0,110,129,-0.0000,-0.0000,0.0188,0.0833
6989,-0.002,0.003,-1.000,-0.1,-0.0,-0.1,0.0000,0.0000,0.0198,0.0837,0,0,110,137,0.0001,-0.0001,0.0188,0.0833
7041,-0.000,0.000,-1.003,-0.0,0.0,-0.0,0.0000,0.0000,0.0198,0.0837,0,0,110,126,-0.0000,-0.0001,0.0188,0.0833
7093,-0.001,0.002,-0.999,-0.0,0.0,-0.1,0.0000,0.0000,0.0198,0.0837,0,0,110,130,-0.0000,-0.0000,0.0188,0.0833
7145,-0.000,0.003,-0.994,0.1,0.1,-0.0,0.0000,0.0000,0.0198,0.0837,0,0,110,125,-0.0001,0.0001,0.0188,0.0833
7197,0.001,0.004,-1.002,-0.0,-0.0,-0.0,-1.4234,0.0000,0.0184,0.0837,1,0,110,122,-0.0274,-0.0001,0.0174,0.0833
7249,0.001,0.001,-0.996,-0.0,0.1,0.0,0.0000,0.0000,0.0198,0.0837,-1,0,110,128,0.0272,-0.0001,0.0188,0.0833
7301,-0.004,0.004,-1.007,0.0,-0.1,-0.1,0.0000,0.0000,0.0198,0.0837,0,0,110,133,0.0001,0.0000,0.0188,0.0833
7353,-0.001,0.000,-1.006,0.0,-0.0,0.1,0.0000,0.0000,0.0184,0.0837,1,0,110,124,-0.0273,0.0000,0.0174,0.0833
7405,0.002,0.001,-1.000,-0.1,0.0,0.0,0.0000,0.0000,0.0184,0.0837,0,0,110,131,-0.0001,-0.0001,0.0174,0.0833
7457,-0.000,0.001,-0.997,-0.0,0.1,0.0,0.0000,0.0000,0.0198,0.0837,-1,0,110,130,0.0272,-0.0001,0.0188,0.0833
7509,-0.003,0.005,-0.999,0.0,-0.1,-0.1,0.0000,0.0000,0.0198,0.0837,0,0,110,125,0.0002,0.0000,0.0188,0.0833
7561,-0.002,0.002,-0.999,-0.1,0.1,0.1,0.0000,0.0000,0.0198,0.0837,0,0,110,129,-0.0001,-0.0001,0.0188,0.0833
7613,0.002,-0.000,-0.998,0.0,0.0,-0.1,0.0000,0.0000,0.0184,0.0837,1,0,110,132,-0.0275,0.0001,0.0174,0.0833
7664,-0.003,0.004,-0.995,0.0,-0.0,-0.1,0.0000,0.0000,0.0198,0.0837,-1,0,110,133,0.0279,0.0000,0.0188,0.0833
7715,-0.002,0.000,-0.993,-0.0,0.0,-0.0,0.0000,0.0000,0.0198,0.0837,0,0,110,127,-0.0000,-0.0000,0.0188,0.0833
7766,-0.003,0.001,-0.996,-0.1,-0.1,-0.1,0.0000,0.0000,0.0212,0.0837,-1,0,110,130,0.0282,-0.0001,0.0202,0.0833
7817,-0.003,0.002,-0.996,0.0,0.0,0.0,0.0000,0.0000,0.0212,0.0837,0,0,110,131,-0.0000,0.0000,0.0202,0.0833
7869,-0.001,0.000,-0.998,0.0,0.0,0.0,-1.4234,0.0000,0.0198,0.0837,1,0,110,121,-0.0274,0.0000,0.0188,0.0833
7921,-0.001,0.000,-0.995,0.0,-0.0,-0.0,1.4234,0.0000,0.0212,0.0837,-1,0,110,130,0.0274,0.0001,0.0202,0.0833
7973,0.001,0.002,-0.999,-0.1,0.0,0.0,0.0000,0.0000,0.0212,0.0837,0,0,110,132,-0.0001,-0.0001,0.0202,0.0833
8024,-0.001,0.001,-1.000,0.0,0.1,0.1,0.0000,0.0000,0.0212,0.0837,0,0,110,126,-0.0002,0.0000,0.0202,0.0833
8076,-0.004,-0.000,-0.999,-0.0,0.0,0.1,0.0000,0.0000,0.0212,0.0837,0,0,110,129,-0.0000,-0.0000,0.0202,0.0833
8128,-0.001,0.001,-1.005,0.1,-0.1,-0.1,0.0000,0.0000,0.0212,0.0837,0,0,110,131,0.0001,0.0001,0.0202,0.0833
8179,-0.003,0.001,-0.998,0.1,0.1,-0.1,0.0000,0.0000,0.0212,0.0837,0,0,110,127,-0.0002,0.0002,0.0202,0.0833
8230,-0.003,-0.002,-0.998,0.0,0.1,-0.0,0.0000,0.0000,0.0212,0.0837,0,0,110,132,-0.0002,0.0000,0.0202,0.0833
8282,-0.003,0.003,-0.995,-0.0,0.0,0.0,1.4234,0.0000,0.0226,0.0837,-1,0,110,129,0.0273,-0.0000,0.0216,0.0833
8333,-0.001,0.007,-0.996,0.0,-0.0,0.1,0.0000,0.0000,0.0226,0.0837,0,0,110,127,0.0000,0.0001,0.0216,0.0833
8384,-0.001,-0.001,-0.996,-0.0,0.1,0.0,0.0000,0.0000,0.0212,0.0837,1,0,110,128,-0.0282,-0.0001,0.0202,0.0833
8435,-0.003,0.005,-0.999,0.0,-0.1,0.0,0.0000,0.0000,0.0212,0.0837,0,0,110,126,0.0001,0.0001,0.0202,0.0833
8486,-0.003,0.002,-1.000,0.1,-0.1,0.0,0.0000,0.0000,0.0212,0.0837,0,0,110,127,0.0002,0.0002,0.0202,0.0833
8537,-0.001,-0.002,-1.001,0.1,-0.0,0.2,0.0000,0.0000,0.0198,0.0837,1,0,110,124,-0.0279,0.0001,0.0188,0.0833
8588,-0.002,0.001,-0.997,-0.0,-0.1,-0.0,1.4234,0.0000,0.0212,0.0837,-1,0,110,134,0.0281,-0.0001,0.0202,0.0833
8639,0.001,0.001,-1.003,-0.0,-0.1,-0.1,0.0000,0.0000,0.0212,0.0837,0,0,110,132,0.0002,-0.0000,0.0202,0.0833
8690,-0.002,-0.002,-0.999,0.0,0.0,0.0,0.0000,0.0000,0.0198,0.0837,1,0,110,126,-0.0279,0.0001,0.0188,0.0833
8742,0.001,0.004,-1.000,-0.1,0.0,0.0,0.0000,0.0000,0.0198,0.0837,0,0,110,133,-0.0001,-0.0001,0.0188,0.0833
8794,-0.004,-0.000,-0.997,-0.0,0.2,0.0,0.0000,0.0000,0.0198,0.0837,0,0,110,130,-0.0003,-0.0000,0.0188,0.0833
8846,-0.003,0.002,-0.997,0.0,-0.1,-0.0,0.0000,0.0000,0.0198,0.0851,0,-1,110,125,0.0001,0.0275,0.0188,0.0848
8898,-0.000,0.006,-1.001,-0.0,0.0,-0.0,0.0000,0.0000,0.0198,0.0837,0,1,110,129,-0.0001,-0.0275,0.0188,0.0833
8950,0.002,0.002,-1.003,0.0,0.0,-0.0,0.0000,0.0000,0.0198,0.0837,0,0,110,132,-0.0000,0.0000,0.0188,0.0833
9002,-0.004,0.001,-0.998,0.1,0.0,0.1,0.0000,0.0000,0.0198,0.0837,0,0,110,124,-0.0000,0.0001,0.0188,0.0833
9054,0.003,0.002,-0.995,-0.0,-0.0,-0.1,0.0000,0.0000,0.0198,0.0837,0,0,110,128,0.0001,-0.0001,0.0188,0.0833
9106,0.000,-0.004,-1.000,0.0,0.1,0.1,0.0000,0.0000,0.0198,0.0837,0,0,110,121,-0.0002,0.0001,0.0188,0.0833
9158,-0.002,0.003,-1.003,0.0,-0.0,0.1,0.0000,0.0000,0.0198,0.0837,0,0,110,125,0.0000,0.0000,0.0188,0.0833
9210,-0.000,0.002,-0.999,-0.0,-0.0,0.1,0.0000,0.0000,0.0184,0.0837,1,0,110,128,-0.0273,-0.0001,0.0173,0.0833
9262,-0.003,0.001,-0.997,0.0,0.0,0.1,0.0000,0.0000,0.0184,0.0837,0,0,110,130,-0.0001,0.0001,0.0173,0.0833
9314,-0.003,0.000,-0.998,0.1,0.1,-0.1,0.0000,0.0000,0.0184,0.0837,0,0,110,134,-0.0001,0.0002,0.0173,0.0834
9366,-0.003,0.005,-1.001,-0.0,0.0,-0.1,0.0000,0.0000,0.0184,0.0837,0,0,110,135,-0.0001,-0.0001,0.0173,0.0833
9418,-0.002,0.001,-1.001,-0.1,-0.0,0.0,0.0000,0.0000,0.0184,0.0837,0,0,110,136,0.0001,-0.0001,0.0173,0.0833
9470,0.000,0.003,-0.996,0.0,-0.1,0.1,0.0000,0.0000,0.0184,0.0837,0,0,110,132,0.0001,0.0000,0.0173,0.0833
9522,0.000,0.001,-0.998,-0.0,0.0,-0.0,0.0000,0.0000,0.0184,0.0837,0,0,110,126,-0.0001,-0.0000,0.0173,0.0833
9574,-0.000,-0.001,-1.003,-0.0,-0.0,0.1,0.0000,0.0000,0.0184,0.0837,0,0,110,130,0.0001,-0.0000,0.0173,0.0833
9626,-0.002,0.000,-0.996,-0.0,-0.1,0.0,0.0000,0.0000,0.0184,0.0837,0,0,110,134,0.0001,-0.0001,0.0173,0.0833
9678,0.003,0.003,-0.997,-0.0,-0.0,-0.1,0.0000,0.0000,0.0184,0.0837,0,0,110,123,0.0001,-0.0000,0.0173,0.0833
9730,-0.002,0.003,-0.997,0.1,0.1,0.1,0.0000,0.0000,0.0184,0.0837,0,0,110,129,-0.0002,0.0003,0.0173,0.0833
9782,0.001,0.004,-0.996,0.0,0.0,-0.0,0.0000,0.0000,0.0184,0.0837,0,0,110,133,-0.0000,0.0000,0.0173,0.0834
9834,-0.002,0.002,-0.995,0.2,-0.1,0.1,0.0000,0.0000,0.0184,0.0837,0,0,110,124,0.0001,0.0003,0.0173,0.0834
9886,-0.001,-0.000,-1.006,-0.1,-0.0,0.0,0.0000,0.0000,0.0184,0.0837,0,0,110,127,0.0001,-0.0002,0.0174,0.0834
9938,0.002,-0.002,-1.004,0.0,0.0,-0.1,0.0000,0.0000,0.0184,0.0837,0,0,110,136,-0.0000,0.0001,0.0173,0.0834
9990,-0.001,0.001,-0.996,-0.1,0.0,-0.1,0.0000,0.0000,0.0170,0.0837,1,0,110,125,-0.0275,-0.0002,0.0159,0.0834
10042,-0.001,0.001,-0.996,-0.0,0.0,-0.0,0.0000,0.0000,0.0170,0.0837,0,0,110,131,-0.0001,-0.0001,0.0159,0.0834
10094,0.000,0.002,-0.996,-0.0,0.0,-0.0,0.0000,0.0000,0.0184,0.0837,-1,0,110,131,0.0273,-0.0001,0.0173,0.0833
10146,-0.002,-0.002,-0.997,0.0,-0.0,0.1,0.0000,0.0000,0.0184,0.0837,0,0,110,129,0.0001,0.0000,0.0173,0.0834
10198,-0.003,0.000,-1.007,0.1,0.1,0.1,-1.4234,0.0000,0.0170,0.0837,1,0,110,125,-0.0275,0.0002,0.0159,0.0834
10250,0.003,0.003,-1.000,0.0,0.0,-0.1,0.0000,0.0000,0.0184,0.0837,-1,0,110,131,0.0273,0.0001,0.0173,0.0834
10302,-0.001,0.003,-0.995,-0.0,-0.1,-0.0,0.0000,0.0000,0.0184,0.0837,0,0,110,135,0.0001,-0.0001,0.0173,0.0834
10353,-0.001,0.001,-1.000,-0.1,0.0,0.1,0.0000,0.0000,0.0170,0.0837,1,0,110,129,-0.0279,-0.0001,0.0159,0.0834
10405,-0.000,0.002,-1.001,-0.0,0.1,0.2,0.0000,0.0000,0.0170,0.0837,0,0,110,131,-0.0002,-0.0000,0.0159,0.0834
10457,0.001,0.004,-0.997,0.0,-0.0,0.0,0.0000,0.0000,0.0170,0.0837,0,0,110,133,0.0001,0.0000,0.0159,0.0834
10508,0.003,0.004,-0.997,-0.1,-0.1,-0.1,0.0000,0.0000,0.0170,0.0837,0,0,110,127,0.0002,-0.0002,0.0159,0.0834
10559,-0.007,-0.004,-1.000,0.1,-0.0,-0.0,0.0000,0.0000,0.0170,0.0837,0,0,110,130,0.0000,0.0002,0.0159,0.0834
10611,-0.003,0.004,-1.005,-0.1,-0.2,0.0,0.0000,0.0000,0.0155,0.0837,1,0,110,131,-0.0270,-0.0002,0.0145,0.0833
10663,0.005,0.007,-1.000,-0.0,-0.2,0.1,0.0000,0.0000,0.0155,0.0837,0,0,110,131,0.0003,-0.0001,0.0145,0.0833
10714,0.001,0.003,-0.996,-0.0,0.0,0.0,0.0000,0.0000,0.0141,0.0837,1,0,110,124,-0.0279,-0.0001,0.0131,0.0833
10765,-0.000,-0.000,-1.000,-0.1,-0.0,-0.0,0.0000,0.0000,0.0141,0.0837,0,0,110,132,0.0001,-0.0003,0.0131,0.0833
10817,0.000,0.001,-1.004,0.2,-0.2,-0.1,0.0000,0.0000,0.0141,0.0837,0,0,110,125,0.0003,0.0004,0.0131,0.0833
10869,0.001,-0.001,-1.001,-0.1,-0.0,-0.1,0.0000,0.0000,0.0141,0.0837,0,0,110,126,0.0000,-0.0001,0.0131,0.0833
10920,-0.003,0.001,-1.001,-0.0,0.0,0.1,0.0000,0.0000,0.0141,0.0837,0,0,110,128,-0.0001,-0.0001,0.0131,0.0833
10971,-0.004,0.003,-1.000,-0.0,-0.0,-0.1,0.0000,0.0000,0.0141,0.0837,0,0,110,136,0.0000,-0.0001,0.0131,0.0833
11022,-0.003,-0.001,-0.999,-0.0,-0.1,-0.0,-1.4234,0.0000,0.0127,0.0837,1,0,110,120,-0.0277,-0.0001,0.0117,0.0833
11073,0.001,-0.000,-1.002,0.0,-0.0,-0.0,0.0000,0.0000,0.0127,0.0837,0,0,110,130,0.0000,0.0000,0.0117,0.0833
11125,-0.001,0.002,-1.003,0.0,-0.0,-0.0,0.0000,0.0000,0.0127,0.0837,0,0,110,137,0.0000,0.0001,0.0117,0.0833
11177,0.003,-0.000,-0.992,0.0,0.0,-0.1,-1.4234,0.0000,0.0113,0.0837,1,0,110,122,-0.0274,0.0000,0.0103,0.0833
11228,-0.002,0.004,-1.006,0.0,0.1,0.0,0.0000,0.0000,0.0113,0.0837,0,0,110,135,-0.0001,0.0000,0.0103,0.0833
11280,-0.003,0.004,-0.995,0.0,-0.0,0.0,0.0000,0.0000,0.0127,0.0837,-1,0,110,136,0.0274,0.0001,0.0117,0.0833
11332,-0.000,-0.002,-1.003,0.0,-0.1,-0.1,0.0000,0.0000,0.0113,0.0837,1,0,110,124,-0.0272,0.0000,0.0103,0.0833
11384,-0.002,0.004,-1.000,0.0,-0.0,-0.0,0.0000,0.0000,0.0113,0.0837,0,0,110,131,0.0000,0.0000,0.0103,0.0833
11435,-0.002,-0.001,-0.999,-0.0,0.1,0.0,0.0000,0.0000,0.0113,0.0837,0,0,110,135,-0.0001,-0.0000,0.0103,0.0833
11486,-0.002,0.001,-0.997,0.0,-0.1,0.1,0.0000,0.0000,0.0113,0.0837,0,0,110,123,0.0002,0.0000,0.0103,0.0833
11537,-0.001,0.004,-0.993,-0.0,-0.1,0.1,0.0000,0.0000,0.0113,0.0837,0,0,110,126,0.0002,-0.0001,0.0103,0.0833
11588,-0.002,-0.001,-0.999,-0.1,-0.0,0.1,0.0000,0.0000,0.0113,0.0837,0,0,110,125,0.0000,-0.0001,0.0103,0.0833
11639,-0.002,0.003,-1.009,0.0,0.0,0.0,0.0000,0.0000,0.0113,0.0851,0,-1,110,133,-0.0000,0.0279,0.0103,0.0848
11691,-0.002,0.001,-0.996,0.0,-0.0,-0.1,0.0000,-1.4234,0.0098,0.0837,1,1,110,121,-0.0274,-0.0274,0.0089,0.0833
11743,-0.000,0.003,-1.004,0.0,-0.0,0.1,0.0000,0.0000,0.0098,0.0837,0,0,110,129,0.0000,0.0000,0.0089,0.0833
11795,0.003,0.000,-1.003,0.0,0.0,-0.0,0.0000,0.0000,0.0098,0.0837,0,0,110,131,-0.0001,0.0001,0.0089,0.0833
11847,-0.001,-0.000,-0.998,0.0,0.1,-0.0,0.0000,0.0000,0.0084,0.0837,1,0,110,124,-0.0275,0.0001,0.0075,0.0833
11898,-0.004,0.006,-0.997,0.1,-0.0,0.1,0.0000,0.0000,0.0084,0.0837,0,0,110,134,0.0001,0.0002,0.0075,0.0834
11949,-0.001,0.003,-1.004,0.1,0.1,-0.1,0.0000,0.0000,0.0098,0.0837,-1,0,110,134,0.0278,0.0002,0.0089,0.0834
12000,-0.006,-0.001,-1.001,0.0,0.0,-0.1,0.0000,0.0000,0.0098,0.0837,0,0,110,128,-0.0001,0.0000,0.0089,0.0834
12051,-0.001,0.004,-1.005,0.0,0.1,-0.1,0.0000,0.0000,0.0098,0.0837,0,0,110,133,-0.0002,0.0000,0.0089,0.0834
12102,-0.003,0.002,-1.000,-0.0,0.0,0.1,0.0000,0.0000,0.0098,0.0837,0,0,110,135,-0.0001,-0.0000,0.0089,0.0834
12153,-0.000,0.004,-1.004,-0.0,-0.0,0.0,0.0000,0.0000,0.0098,0.0837,0,0,110,123,0.0000,-0.0001,0.0089,0.0834
12204,-0.001,0.002,-0.999,0.0,0.0,-0.1,0.0000,0.0000,0.0084,0.0837,1,0,110,126,-0.0279,0.0001,0.0074,0.0834
12255,-0.004,0.001,-0.998,0.0,0.1,0.0,0.0000,0.0000,0.0084,0.0837,0,0,110,138,-0.0003,0.0000,0.0074,0.0834
12306,-0.004,0.005,-0.998,-0.1,0.1,0.1,0.0000,0.0000,0.0084,0.0837,0,0,110,132,-0.0001,-0.0002,0.0074,0.0834
12357,-0.004,0.002,-1.001,-0.1,0.1,0.1,0.0000,0.0000,0.0084,0.0837,0,0,110,129,-0.0001,-0.0002,0.0074,0.0833
12408,0.003,0.005,-1.001,-0.0,-0.0,0.0,0.0000,0.0000,0.0084,0.0837,0,0,110,130,0.0000,-0.0000,0.0074,0.0833
12459,0.001,0.003,-1.004,0.0,0.1,0.1,0.0000,0.0000,0.0084,0.0837,0,0,110,127,-0.0001,0.0001,0.0074,0.0833
12510,-0.003,0.003,-1.003,-0.0,0.0,-0.1,0.0000,0.0000,0.0084,0.0837,0,0,110,126,-0.0001,-0.0000,0.0074,0.0833
12561,0.000,0.003,-0.998,-0.1,-0.1,-0.0,0.0000,0.0000,0.0084,0.0837,0,0,110,136,0.0002,-0.0001,0.0074,0.0833
12612,-0.001,0.005,-0.996,0.0,-0.0,0.1,0.0000,0.0000,0.0084,0.0837,0,0,110,133,0.0000,0.0000,0.0074,0.0833
12663,-0.002,0.002,-0.996,-0.2,-0.1,0.0,0.0000,0.0000,0.0084,0.0837,0,0,110,128,0.0002,-0.0003,0.0074,0.0833
12715,-0.000,0.005,-1.005,-0.0,0.1,0.1,0.0000,0.0000,0.0084,0.0837,0,0,110,131,-0.0001,-0.0001,0.0074,0.0833
12767,-0.004,0.001,-0.999,0.0,-0.0,0.1,0.0000,0.0000,0.0084,0.0837,0,0,110,119,0.0001,0.0001,0.0074,0.0833
12819,-0.001,0.006,-0.999,-0.1,0.0,0.1,0.0000,0.0000,0.0084,0.0837,0,0,110,123,-0.0001,-0.0002,0.0074,0.0833
12871,-0.001,-0.001,-1.000,0.0,0.1,-0.0,0.0000,0.0000,0.0084,0.0837,0,0,110,129,-0.0002,0.0000,0.0074,0.0833
12923,-0.001,0.001,-0.999,-0.0,0.0,0.1,0.0000,0.0000,0.0084,0.0837,0,0,110,132,-0.0001,-0.0000,0.0074,0.0833
12975,0.000,-0.003,-1.003,-0.0,0.1,0.1,0.0000,0.0000,0.0084,0.0837,0,0,110,123,-0.0002,-0.0000,0.0074,0.0833
13027,0.002,0.003,-1.006,-0.0,0.1,0.0,0.0000,0.0000,0.0070,0.0837,1,0,110,132,-0.0276,-0.0001,0.0060,0.0833
13079,0.001,0.000,-0.993,0.1,-0.0,0.1,0.0000,0.0000,0.0070,0.0851,0,-1,110,127,0.0000,0.0275,0.0060,0.0847
13131,0.000,0.003,-1.004,0.0,-0.0,0.1,0.0000,0.0000,0.0070,0.0851,0,0,110,124,0.0000,0.0000,0.0060,0.0847
13183,0.000,0.000,-1.004,0.0,0.0,-0.0,0.0000,0.0000,0.0070,0.0837,0,1,110,127,-0.0001,-0.0273,0.0060,0.0833
13235,0.000,0.003,-1.004,-0.0,0.0,0.1,0.0000,0.0000,0.0084,0.0837,-1,0,110,130,0.0273,-0.0001,0.0074,0.0833
13287,0.000,0.004,-0.998,0.0,-0.0,-0.0,0.0000,0.0000,0.0084,0.0837,0,0,110,123,0.0001,0.0001,0.0074,0.0833
13339,0.002,0.003,-0.996,-0.0,-0.0,0.1,0.0000,0.0000,0.0084,0.0837,0,0,110,128,0.0001,-0.0001,0.0074,0.0833
13391,0.001,0.001,-1.001,-0.0,0.1,-0.1,0.0000,0.0000,0.0084,0.0837,0,0,110,128,-0.0001,-0.0001,0.0074,0.0833
13443,-0.003,0.004,-1.003,-0.0,0.0,-0.1,0.0000,0.0000,0.0084,0.0837,0,0,110,136,-0.0001,-0.0000,0.0074,0.0833
13495,-0.002,-0.000,-1.000,-0.0,-0.0,-0.0,0.0000,0.0000,0.0084,0.0837,0,0,110,125,0.0000,-0.0001,0.0074,0.0833